* ============================================================;
* Downloaded from myCSG lesson content;
* Lesson: ADaM_C1004_L103b;
* Content Type: sas_data;
* Downloaded By: Ravi;
* Email: ppm08641@gmail.com;
* ============================================================;

*----------------------------------------------------;
*Copyright @ www.mycsg.in;
*This is sample data from www.mycsg.in;
*----------------------------------------------------;



data dm;
infile datalines dlm='|' dsd missover;
input USUBJID : $40. RFSTDTC : $20.;
label ;
format ;
datalines4;
CSG-1001|2015-09-02
;;;;
run;

data lb;
infile datalines dlm='|' dsd missover;
input USUBJID : $40. LBTESTCD : $8. LBTEST : $40. LBSTRESN : best32. LBSTRESU : $20. VISITNUM : best32. VISIT : $50. LBDTC : $20.;
label ;
format ;
datalines4;
CSG-1001|HDL|HDL Cholesterol|1.16|mmol/L|1.1|SCREENING|2015-08-12T08:45
CSG-1001|HDL|HDL Cholesterol|1.31|mmol/L|2|DAY 1|2015-09-02T08:20
CSG-1001|HDL|HDL Cholesterol|1.05|mmol/L|6|WEEK 4|2015-09-30T08:25
CSG-1001|HDL|HDL Cholesterol|1.16|mmol/L|10|WEEK 8|2015-10-28T08:15
CSG-1001|HDL|HDL Cholesterol|1.16|mmol/L|12|WEEK 12|2015-11-25T08:20
CSG-1001|HDL|HDL Cholesterol|1.26|mmol/L|16|WEEK 20|2016-01-20T08:30
CSG-1001|LDL|LDL Cholesterol|1.75|mmol/L|1.1|SCREENING|2015-08-12T08:45
CSG-1001|LDL|LDL Cholesterol|1.7|mmol/L|2|DAY 1|2015-09-02T08:20
CSG-1001|LDL|LDL Cholesterol|1.46|mmol/L|6|WEEK 4|2015-09-30T08:25
CSG-1001|LDL|LDL Cholesterol|1.36|mmol/L|10|WEEK 8|2015-10-28T08:15
CSG-1001|LDL|LDL Cholesterol|2.12|mmol/L|12|WEEK 12|2015-11-25T08:20
CSG-1001|LDL|LDL Cholesterol|1.75|mmol/L|16|WEEK 20|2016-01-20T08:30
;;;;
run;



* ============================================================;
* End of downloaded content;
* Downloaded By: Ravi;
* Email: ppm08641@gmail.com;
* ============================================================;