* ============================================================;
* Downloaded from myCSG lesson content;
* Lesson: ADaM_C1004_L103a;
* Content Type: sas_data;
* Downloaded By: Ravi;
* Email: ppm08641@gmail.com;
* ============================================================;

*----------------------------------------------------;
*Copyright @ www.mycsg.in;
*This is sample data from www.mycsg.in;
*----------------------------------------------------;



data dm;
infile datalines dlm='|' dsd missover;
input USUBJID : $14. RFSTDTC : $10.;
label ;
format ;
datalines4;
CSG-1001|2003-04-29
CSG-1002|2003-10-15
CSG-1003|2003-09-30
CSG-1004|2003-10-10
CSG-1005|
;;;;
run;

data vs;
infile datalines dlm='|' dsd missover;
input USUBJID : $14. VSTESTCD : $20. VSTEST : $24. VSPOS : $7. VSSTRESN : best32. VSSTRESU : $9. VISITNUM : best32. VISIT : $8. VSDTC : $10.;
label ;
format ;
datalines4;
CSG-1001|HEIGHT|Height||167.6|cm|1|SCREEN|2003-04-15
CSG-1001|WEIGHT|Weight||69.9|kg|1|SCREEN|2003-04-15
CSG-1001|WEIGHT|Weight||70.8|kg|2|BASELINE|2003-04-29
CSG-1001|WEIGHT|Weight||72.1|kg|3|WEEK 2|2003-05-13
CSG-1001|WEIGHT|Weight||71.2|kg|10|WEEK 24|2003-10-13
CSG-1002|HEIGHT|Height||153.7|cm|1|SCREEN|2003-10-06
CSG-1002|WEIGHT|Weight||54.4|kg|1|SCREEN|2003-10-06
CSG-1002|WEIGHT|Weight||54.9|kg|2|BASELINE|2003-10-15
CSG-1002|WEIGHT|Weight||56.2|kg|3|WEEK 2|2003-10-31
CSG-1002|WEIGHT|Weight||62.6|kg|10|WEEK 24|2004-03-30
CSG-1003|HEIGHT|Height||160|cm|1|SCREEN|2003-09-09
CSG-1003|WEIGHT|Weight||51.7|kg|1|SCREEN|2003-09-09
CSG-1003|WEIGHT|Weight||51.3|kg|2|BASELINE|2003-09-30
CSG-1003|WEIGHT|Weight||51.7|kg|3|WEEK 2|2003-10-14
CSG-1003|WEIGHT|Weight||49.4|kg|10|WEEK 24|2004-02-02
CSG-1004|HEIGHT|Height||166.4|cm|1|SCREEN|2003-09-18
CSG-1004|WEIGHT|Weight||56|kg|1|SCREEN|2003-09-18
CSG-1004|WEIGHT|Weight||59|kg|2|BASELINE|2003-10-10
CSG-1004|WEIGHT|Weight||59.4|kg|3|WEEK 2|2003-10-24
CSG-1004|WEIGHT|Weight||58.1|kg|10|WEEK 24|2004-03-29
;;;;
run;



* ============================================================;
* End of downloaded content;
* Downloaded By: Ravi;
* Email: ppm08641@gmail.com;
* ============================================================;