* ============================================================;
* Downloaded from myCSG lesson content;
* Lesson: ADaM_C1001_L103a;
* Content Type: sas_data;
* Downloaded By: Ravi;
* Email: ppm08641@gmail.com;
* ============================================================;

*----------------------------------------------------;
*Copyright @ www.mycsg.in;
*This is sample data from www.mycsg.in;
*----------------------------------------------------;



data dm;
infile datalines dlm='|' dsd missover;
input USUBJID : $11. ARMCD : $4.;
label ;
format ;
datalines4;
CSG-1001|SEQ2
CSG-1002|SEQ2
CSG-1003|SEQ1
CSG-1004|SEQ1
;;;;
run;

data ex;
infile datalines dlm='|' dsd missover;
input USUBJID : $11. EXTRT : $6. EXSTDTC : $19. EXENDTC : $1. EXTPT : $7. VISITNUM : best32.;
label ;
format ;
datalines4;
CSG-1001|Active|2015-11-24T08:31:00||MORNING|201
CSG-1001|Active|2015-11-25T08:25:00||MORNING|202
CSG-1001|CSG|2016-03-09T07:50:00||MORNING|205
CSG-1001|CSG|2016-03-09T20:00:00||EVENING|205
CSG-1001|CSG|2016-03-10T07:42:00||MORNING|206
CSG-1002|Active|2016-02-08T08:29:00||MORNING|201
CSG-1002|Active|2016-02-09T08:23:00||MORNING|202
CSG-1003|CSG|2016-05-23T08:07:00||MORNING|205
CSG-1003|CSG|2016-05-24T07:56:00||MORNING|206
CSG-1003|Active|2016-02-04T08:13:00||MORNING|201
CSG-1003|Active|2016-02-04T20:05:00||EVENING|201
CSG-1003|Active|2016-02-05T08:08:00||MORNING|202
CSG-1004|Active|2016-02-03T08:12:00||MORNING|205
CSG-1004|Active|2016-02-04T08:11:00||MORNING|206
CSG-1004|CSG|2015-09-29T09:14:00||MORNING|201
CSG-1004|CSG|2015-09-29T21:15:00||EVENING|201
CSG-1004|CSG|2015-09-30T09:14:00||MORNING|202
;;;;
run;



* ============================================================;
* End of downloaded content;
* Downloaded By: Ravi;
* Email: ppm08641@gmail.com;
* ============================================================;